{
	"resourceType": "Bundle",
	"id": "97b7ebc9-f9011cf8",
	"meta": {
		"versionId": "5",
		"lastUpdated": "2023-02-24T13:57:41.988+00:00",
		"source": "#0ed47629f183c3d4",
		"tag": [
			{
				"system": "https://nhsnlink.org",
				"code": "patient-data"
			}
		]
	},
	"identifier": {
		"value": "eNeMVHWfNoTsMTbrwWQQ30A3"
	},
	"type": "batch",
	"entry": [
		{
			"resource": {
				"resourceType": "Patient",
				"id": "eNeMVHWfNoTsMTbrwWQQ30A3",
				"meta": {
					"versionId": "127425491"
				},
				"extension": [
					{
						"url": "http://hl7.org/fhir/us/core/StructureDefinition/us-core-race",
						"extension": [
							{
								"url": "ombCategory",
								"valueCoding": {
									"system": "urn:oid:2.16.840.1.113883.6.238",
									"code": "2106-3",
									"display": "White"
								}
							},
							{
								"url": "text",
								"valueString": "White or Caucasian"
							}
						]
					},
					{
						"url": "http://hl7.org/fhir/us/core/StructureDefinition/us-core-ethnicity",
						"extension": [
							{
								"url": "ombCategory",
								"valueCoding": {
									"system": "urn:oid:2.16.840.1.113883.6.238",
									"code": "2135-2",
									"display": "Hispanic or Latino"
								}
							},
							{
								"url": "text",
								"valueString": "Hispanic or Latino"
							}
						]
					},
					{
						"url": "http://open.epic.com/FHIR/StructureDefinition/extension/legal-sex",
						"valueCodeableConcept": {
							"coding": [
								{
									"system": "urn:oid:1.2.840.114350.1.13.277.3.7.10.698084.130.768080.39128",
									"code": "female",
									"display": "female"
								}
							]
						}
					},
					{
						"url": "http://hl7.org/fhir/StructureDefinition/patient-genderIdentity",
						"valueCodeableConcept": {
							"coding": [
								{
									"system": "http://hl7.org/fhir/gender-identity",
									"code": "female",
									"display": "female"
								}
							]
						}
					},
					{
						"url": "http://open.epic.com/FHIR/StructureDefinition/extension/sex-for-clinical-use",
						"valueCodeableConcept": {
							"coding": [
								{
									"system": "urn:oid:1.2.840.114350.1.13.277.3.7.10.698084.130.768080.35144",
									"code": "female",
									"display": "female"
								}
							]
						}
					},
					{
						"url": "http://hl7.org/fhir/us/core/StructureDefinition/us-core-birthsex",
						"valueCode": "F"
					}
				],
				"identifier": [
					{
						"use": "usual",
						"type": {
							"text": "CEID"
						},
						"system": "urn:oid:1.2.840.114350.1.13.277.3.7.3.688884.100",
						"value": "UMIWPRM9HC5BRLR"
					},
					{
						"use": "usual",
						"type": {
							"text": "ENTERPRISE"
						},
						"system": "urn:oid:1.2.840.114350.1.13.277.3.7.5.737384.0",
						"value": "E37928"
					},
					{
						"use": "usual",
						"type": {
							"text": "EXTERNAL"
						},
						"system": "urn:oid:1.2.840.114350.1.13.277.3.7.2.698084",
						"value": "Z38550"
					},
					{
						"use": "usual",
						"type": {
							"text": "FHIR"
						},
						"system": "http://open.epic.com/FHIR/StructureDefinition/patient-dstu2-fhir-id",
						"value": "TwFZOmQmAvDKhCccF.Oe31ojMwbcG5wT8LbQ-k9pQK6EB"
					},
					{
						"use": "usual",
						"type": {
							"text": "FHIR STU3"
						},
						"system": "http://open.epic.com/FHIR/StructureDefinition/patient-fhir-id",
						"value": "eNeMVHWfNoTsMTbrwWQQ30A3"
					},
					{
						"use": "usual",
						"type": {
							"text": "INTERNAL"
						},
						"system": "urn:oid:1.2.840.114350.1.13.277.3.7.2.698084",
						"value": "    Z38550"
					},
					{
						"use": "usual",
						"type": {
							"text": "MRN"
						},
						"system": "urn:oid:1.2.5.8.2.7",
						"value": "100001602"
					},
					{
						"use": "usual",
						"system": "https://open.epic.com/FHIR/StructureDefinition/PayerMemberId",
						"value": "0100001602"
					}
				],
				"active": true,
				"name": [
					{
						"use": "official",
						"text": "Hobevent Hob",
						"family": "Hob",
						"given": [
							"Hobevent"
						]
					},
					{
						"use": "usual",
						"text": "Hobevent Hob",
						"family": "Hob",
						"given": [
							"Hobevent"
						]
					}
				],
				"telecom": [
					{
						"system": "phone",
						"value": "999-999-9999",
						"use": "home"
					}
				],
				"gender": "female",
				"birthDate": "2021-07-07",
				"deceasedBoolean": false,
				"address": [
					{
						"use": "old",
						"line": [
							"1010 Epic Terr."
						],
						"city": "Verona",
						"state": "WI",
						"postalCode": "53593",
						"country": "US"
					},
					{
						"use": "home",
						"line": [
							"1010 Epic Terr."
						],
						"city": "Verona",
						"state": "WI",
						"postalCode": "53593",
						"country": "US"
					}
				],
				"managingOrganization": {
					"reference": "Organization/eGwhbGrShOH.2ik0adHKdFQ3",
					"display": "Michigan Medicine"
				}
			},
			"request": {
				"method": "PUT",
				"url": "Patient/eNeMVHWfNoTsMTbrwWQQ30A3"
			}
		},
		{
			"resource": {
				"resourceType": "Encounter",
				"id": "e2RfNK8qdAWCAGOZ2ay3S3A3",
				"extension": [
					{
						"url": "https://www.lantanagroup.com/fhir/StructureDefinition/nhsn-encounter-original-status",
						"valueCoding": {
							"code": "FINISHED"
						}
					}
				],
				"identifier": [
					{
						"use": "usual",
						"system": "urn:oid:1.2.840.114350.1.13.277.3.7.3.698084.8",
						"value": "1000518445"
					}
				],
				"status": "finished",
				"class": {
					"system": "urn:oid:1.2.840.114350.1.72.1.7.7.10.696784.13260",
					"code": "6",
					"display": "Discharge"
				},
				"type": [
					{
						"coding": [
							{
								"system": "urn:oid:1.2.840.114350.1.13.277.3.7.10.698084.10110",
								"code": "101",
								"display": "Inpatient"
							}
						],
						"text": "Inpatient"
					},
					{
						"coding": [
							{
								"system": "urn:oid:1.2.840.114350.1.13.277.3.7.10.698084.30",
								"code": "3",
								"display": "Hospital Encounter"
							}
						],
						"text": "Hospital Encounter"
					},
					{
						"coding": [
							{
								"system": "urn:oid:1.2.840.114350.1.13.277.3.7.10.698084.18875",
								"code": "1",
								"display": "Emergent"
							}
						],
						"text": "Emergent"
					}
				],
				"serviceType": {
					"coding": [
						{
							"system": "urn:oid:1.2.840.114350.1.13.277.3.7.10.698084.18886",
							"code": "78",
							"display": "Pediatric General - Blue"
						}
					],
					"text": "Pediatric General - Blue"
				},
				"subject": {
					"reference": "Patient/eNeMVHWfNoTsMTbrwWQQ30A3",
					"display": "Hob, Hobevent"
				},
				"participant": [
					{
						"type": [
							{
								"coding": [
									{
										"system": "http://hl7.org/fhir/v3/ParticipationType",
										"code": "ADM",
										"display": "admitter"
									}
								],
								"text": "admitter"
							}
						],
						"individual": {
							"reference": "Practitioner/eYwRiC48o70NwnCJN4b7VNQ3",
							"type": "Practitioner",
							"display": "Samantha Leigh Kempner, MD"
						}
					},
					{
						"type": [
							{
								"coding": [
									{
										"system": "http://hl7.org/fhir/v3/ParticipationType",
										"code": "DIS",
										"display": "discharger"
									}
								],
								"text": "discharger"
							}
						],
						"individual": {
							"reference": "Practitioner/eYwRiC48o70NwnCJN4b7VNQ3",
							"type": "Practitioner",
							"display": "Samantha Leigh Kempner, MD"
						}
					},
					{
						"type": [
							{
								"coding": [
									{
										"system": "http://hl7.org/fhir/v3/ParticipationType",
										"code": "ATND",
										"display": "attender"
									}
								],
								"text": "attender"
							}
						],
						"period": {
							"start": "2023-01-12T04:55:54Z"
						},
						"individual": {
							"reference": "Practitioner/eYwRiC48o70NwnCJN4b7VNQ3",
							"type": "Practitioner",
							"display": "Samantha Leigh Kempner, MD"
						}
					}
				],
				"period": {
					"start": "2023-01-01T23:00:00Z",
					"end": "2023-01-10T19:00:00Z"
				},
				"reasonCode": [
					{
						"coding": [
							{
								"system": "http://snomed.info/sct",
								"code": "230145002",
								"display": "Difficulty breathing (finding)"
							}
						],
						"text": "Difficulty breathing"
					},
					{
						"coding": [
							{
								"system": "urn:oid:1.2.840.114350.1.13.277.3.7.2.728286",
								"code": "160490",
								"display": "Respiratory Distress"
							}
						],
						"text": "Respiratory Distress"
					}
				],
				"diagnosis": [
					{
						"condition": {
							"reference": "Condition/eQa8.HtVsqvSOeT38KJ7.tuQyyQVWvVzRF7..iTsYWzA3",
							"display": "Bacteremia"
						}
					}
				],
				"account": [
					{
						"identifier": {
							"system": "urn:oid:1.2.840.114350.1.13.277.3.7.2.726582",
							"value": "100068039"
						},
						"display": "HOB,HOBEVENT"
					}
				],
				"hospitalization": {
					"extension": [
						{
							"url": "http://open.epic.com/FHIR/StructureDefinition/extension/ip-admit-datetime",
							"valueDateTime": "2023-01-02T01:59:00Z"
						}
					],
					"admitSource": {
						"coding": [
							{
								"system": "urn:oid:1.2.840.114350.1.13.277.3.7.10.698084.10310",
								"code": "41",
								"display": "ED FR HOME"
							}
						],
						"text": "ED FR HOME"
					},
					"dischargeDisposition": {
						"coding": [
							{
								"system": "urn:oid:1.2.840.114350.1.13.277.3.7.10.698084.18888",
								"code": "1",
								"display": "11 Home or Self Care"
							}
						],
						"text": "11 Home or Self Care"
					}
				},
				"location": [
					{
						"location": {
							"reference": "Location/eaA8jQ6JzXsG1s.pYNa6L5NMpnIWhwvEC5pOd4v.WYq43",
							"display": "MH Childrens Emergency Department"
						},
						"period": {
							"start": "2023-01-01T23:00:00Z",
							"end": "2023-01-02T02:00:00Z"
						}
					},
					{
						"location": {
							"reference": "Location/ea1GRyXwt6.sHaLqHL7jphAqX1qVrSyzBjZzQY3aASx83",
							"display": "MH 12E GEN CARE"
						},
						"period": {
							"start": "2023-01-02T02:00:00Z",
							"end": "2023-01-10T19:00:00Z"
						}
					},
					{
						"location": {
							"reference": "Location/ea1GRyXwt6.sHaLqHL7jphAqX1qVrSyzBjZzQY3aASx83",
							"display": "MH 12E GEN CARE"
						}
					},
					{
						"location": {
							"reference": "Location/eYJBEaYZeCt0e7EiJLrGTsA3",
							"display": "Michigan Medicine"
						}
					},
					{
						"location": {
							"reference": "Location/exXYgJ9daGD8ZDgiZ3XoXIQ3",
							"display": "1204"
						},
						"physicalType": {
							"coding": [
								{
									"system": "http://terminology.hl7.org/CodeSystem/location-physical-type",
									"code": "ro",
									"display": "Room"
								}
							],
							"text": "Room"
						}
					},
					{
						"location": {
							"identifier": {
								"system": "urn:oid:1.2.840.114350.1.13.277.3.7.2.666968",
								"value": "1850"
							},
							"display": "1204 / 01"
						},
						"physicalType": {
							"coding": [
								{
									"system": "http://terminology.hl7.org/CodeSystem/location-physical-type",
									"code": "bd",
									"display": "Bed"
								}
							],
							"text": "Bed"
						}
					}
				]
			},
			"request": {
				"method": "PUT",
				"url": "Encounter/e2RfNK8qdAWCAGOZ2ay3S3A3"
			}
		},
		{
			"resource": {
				"resourceType": "Condition",
				"id": "eQa8.HtVsqvSOeT38KJ7.tuQyyQVWvVzRF7..iTsYWzA3",
				"clinicalStatus": {
					"coding": [
						{
							"system": "http://terminology.hl7.org/CodeSystem/condition-clinical",
							"version": "4.0.0",
							"code": "active",
							"display": "Active"
						}
					],
					"text": "Active"
				},
				"verificationStatus": {
					"coding": [
						{
							"system": "http://terminology.hl7.org/CodeSystem/condition-ver-status",
							"version": "4.0.0",
							"code": "confirmed",
							"display": "Confirmed"
						}
					],
					"text": "Confirmed"
				},
				"category": [
					{
						"coding": [
							{
								"system": "http://terminology.hl7.org/CodeSystem/condition-category",
								"code": "problem-list-item",
								"display": "Problem List Item"
							}
						],
						"text": "Problem List Item"
					},
					{
						"coding": [
							{
								"system": "http://loinc.org",
								"code": "75310-3",
								"display": "Health concerns"
							},
							{
								"system": "http://hl7.org/fhir/us/core/CodeSystem/condition-category",
								"code": "health-concern",
								"display": "Health Concern"
							}
						],
						"text": "Health Concern"
					}
				],
				"code": {
					"coding": [
						{
							"system": "http://hl7.org/fhir/sid/icd-10-cm",
							"code": "R78.81"
						},
						{
							"system": "http://snomed.info/sct",
							"code": "5758002"
						}
					],
					"text": "Bacteremia"
				},
				"subject": {
					"reference": "Patient/eNeMVHWfNoTsMTbrwWQQ30A3",
					"display": "Hob, Hobevent"
				},
				"onsetPeriod": {
					"start": "2023-01-04",
					"end": "2023-01-04"
				},
				"recordedDate": "2023-01-12"
			},
			"request": {
				"method": "PUT",
				"url": "Condition/eQa8.HtVsqvSOeT38KJ7.tuQyyQVWvVzRF7..iTsYWzA3"
			}
		},
		{
			"resource": {
				"resourceType": "Condition",
				"id": "hash-c8877a58",
				"extension": [
					{
						"url": "https://www.cdc.gov/nhsn/fhir/nhsnlink/StructureDefinition/nhsnlink-original-id",
						"valueString": "eTGYCyjqa4kyXK.j07bEoU0DgV1pCSj88Iu6fml.OhtNeimPW4a8m1dWoZAexe7YW3"
					}
				],
				"category": [
					{
						"coding": [
							{
								"system": "http://open.epic.com/FHIR/StructureDefinition/condition-category",
								"code": "reason-for-visit",
								"display": "Reason for Visit"
							}
						],
						"text": "Reason for Visit"
					}
				],
				"code": {
					"coding": [
						{
							"system": "urn:oid:1.2.840.114350.1.13.277.3.7.2.728286",
							"code": "160490",
							"display": "Respiratory Distress"
						}
					],
					"text": "Respiratory Distress"
				},
				"subject": {
					"reference": "Patient/eNeMVHWfNoTsMTbrwWQQ30A3",
					"display": "Hob, Hobevent"
				},
				"encounter": {
					"reference": "Encounter/e2RfNK8qdAWCAGOZ2ay3S3A3",
					"identifier": {
						"use": "usual",
						"system": "urn:oid:1.2.840.114350.1.13.277.3.7.3.698084.8",
						"value": "1000518445"
					},
					"display": "Hospital Encounter"
				},
				"recordedDate": "2023-01-12T04:41:54Z",
				"recorder": {
					"reference": "Practitioner/ehgI99ZMnGr2QH52m1dTIbA3",
					"display": "Nurse Um_Cln, RN"
				}
			},
			"request": {
				"method": "PUT",
				"url": "Condition/hash-c8877a58"
			}
		},
		{
			"resource": {
				"resourceType": "DiagnosticReport",
				"id": "eKm5YPQSGUCrjKxilnWoJz1vdAFOHdedGVMT-EMvVSCc3",
				"identifier": [
					{
						"use": "official",
						"type": {
							"coding": [
								{
									"system": "http://terminology.hl7.org/CodeSystem/v2-0203",
									"code": "PLAC",
									"display": "Placer Identifier"
								}
							],
							"text": "Placer Identifier"
						},
						"system": "urn:oid:1.2.840.114350.1.13.277.3.7.2.798268",
						"value": "101960085"
					},
					{
						"use": "official",
						"type": {
							"coding": [
								{
									"system": "http://terminology.hl7.org/CodeSystem/v2-0203",
									"code": "FILL",
									"display": "Filler Identifier"
								}
							],
							"text": "Filler Identifier"
						},
						"system": "urn:oid:1.2.840.114350.1.13.277.3.7.3.798268.800",
						"value": "C10411065:11"
					},
					{
						"use": "official",
						"type": {
							"coding": [
								{
									"system": "http://terminology.hl7.org/CodeSystem/v2-0203",
									"code": "FILL",
									"display": "Filler Identifier"
								}
							],
							"text": "Filler Identifier"
						},
						"system": "https://open.epic.com/FHIR/277/order-accession-number/LIS",
						"value": "C10411065"
					}
				],
				"basedOn": [
					{
						"reference": "ServiceRequest/eCuiNdfP6vp8UiJegckfNCQLOLefcqHvvoozcQ-2uEJo3",
						"type": "ServiceRequest"
					}
				],
				"status": "final",
				"category": [
					{
						"coding": [
							{
								"system": "urn:oid:1.2.840.114350.1.13.277.3.7.10.798268.30",
								"code": "Microbiology"
							}
						],
						"text": "Microbiology"
					},
					{
						"coding": [
							{
								"system": "http://terminology.hl7.org/CodeSystem/v2-0074",
								"code": "LAB",
								"display": "Laboratory"
							}
						],
						"text": "Laboratory"
					}
				],
				"code": {
					"coding": [
						{
							"system": "http://loinc.org",
							"code": "17928-3"
						},
						{
							"system": "urn:oid:1.2.840.114350.1.13.277.3.7.2.696580",
							"code": "7564",
							"display": "BLOOD CULTURE"
						},
						{
							"system": "urn:oid:1.2.840.114350.1.13.277.3.7.5.737384.74",
							"code": "BLD"
						}
					],
					"text": "Blood Culture, Aerobic and Anaerobic Peripheral; Blood"
				},
				"subject": {
					"reference": "Patient/eNeMVHWfNoTsMTbrwWQQ30A3",
					"display": "Hob, Hobevent"
				},
				"encounter": {
					"reference": "Encounter/e2RfNK8qdAWCAGOZ2ay3S3A3",
					"identifier": {
						"use": "usual",
						"system": "urn:oid:1.2.840.114350.1.13.277.3.7.3.698084.8",
						"value": "1000518445"
					},
					"display": "Hospital Encounter"
				},
				"effectiveDateTime": "2023-01-05T04:25:00Z",
				"issued": "2023-01-08T21:08:00Z",
				"performer": [
					{
						"reference": "Practitioner/eFmGhJg.OtWkLRQ5qBvdscA3",
						"type": "Practitioner",
						"display": "Faculty Physician Um_Cln, MD"
					},
					{
						"reference": "Organization/elZhiz6d-U3AzTLo21LWUvOWjX0yHKMNAAzihBuDqUpY3",
						"type": "Organization",
						"display": "MICHIGAN MEDICINE PATHOLOGY AND CLINICAL LABORATORIES"
					}
				],
				"result": [
					{
						"extension": [
							{
								"url": "https://www.cdc.gov/nhsn/fhir/nhsnlink/StructureDefinition/nhsnlink-original-id",
								"valueString": "Observation/exSem6hAC4TzccqqaRe3NOSJgTV5iW5SeWaZ-9gv.JOLJUtMASISI1IarL-bsrUH8DxanrtskB7-Gb87oHdDmbg3"
							}
						],
						"reference": "Observation/hash-b4def66",
						"display": "Component (1): BLOOD CULTURE"
					},
					{
						"extension": [
							{
								"url": "https://www.cdc.gov/nhsn/fhir/nhsnlink/StructureDefinition/nhsnlink-original-id",
								"valueString": "Observation/exSem6hAC4TzccqqaRe3NORq-HBUEgsOhjVgWf5soEcvocw-j7xBFqLHEdFNUW.oa3"
							}
						],
						"reference": "Observation/hash-be481496",
						"display": "Isolate (1): STAPHYLOCOCCUS AUREUS"
					}
				]
			},
			"request": {
				"method": "PUT",
				"url": "DiagnosticReport/eKm5YPQSGUCrjKxilnWoJz1vdAFOHdedGVMT-EMvVSCc3"
			}
		},
		{
			"resource": {
				"resourceType": "Coverage",
				"id": "hash-2c79f7e9",
				"contained": [
					{
						"resourceType": "Organization",
						"id": "org1",
						"type": [
							{
								"coding": [
									{
										"system": "urn:oid:1.2.840.114350.1.72.1.7.7.10.678671.120",
										"code": "3",
										"display": "Insurance Plan"
									}
								],
								"text": "Insurance Plan"
							}
						],
						"contact": [
							{
								"purpose": {
									"coding": [
										{
											"system": "http://terminology.hl7.org/CodeSystem/contactentity-type",
											"code": "BILL",
											"display": "Billing"
										}
									]
								},
								"address": {
									"use": "billing",
									"line": [
										"PO BOX 30043"
									],
									"city": "LANSING",
									"state": "MI",
									"postalCode": "48909",
									"country": "US"
								}
							}
						]
					}
				],
				"extension": [
					{
						"url": "http://open.epic.com/FHIR/StructureDefinition/extension/billing-organization",
						"valueReference": {
							"reference": "#org1"
						}
					},
					{
						"url": "https://www.cdc.gov/nhsn/fhir/nhsnlink/StructureDefinition/nhsnlink-original-id",
						"valueString": "ep.v.9yI9bZp7I7h-ttN7jAj3iIr.hp2a-dEJltEFjIdqhdEe4UjZXWcFlIsAz.pB3"
					}
				],
				"identifier": [
					{
						"system": "urn:oid:1.2.840.114350.1.13.277.3.7.2.678671",
						"value": "5000304"
					}
				],
				"status": "active",
				"type": {
					"coding": [
						{
							"system": "http://open.epic.com/FHIR/StructureDefinition/coverage-type",
							"code": "medicaid",
							"display": "Medicaid"
						}
					],
					"text": "Medicaid"
				},
				"subscriber": {
					"reference": "Patient/eNeMVHWfNoTsMTbrwWQQ30A3",
					"identifier": {
						"use": "official",
						"type": {
							"text": "Medicaid Number"
						},
						"system": "urn:oid:1.2.840.114350.1.13.277.3.7.3.698084.5335",
						"value": "0100001602"
					},
					"display": "Hob, Hobevent"
				},
				"subscriberId": "xxxxxx1602",
				"beneficiary": {
					"reference": "Patient/eNeMVHWfNoTsMTbrwWQQ30A3",
					"display": "Hob, Hobevent"
				},
				"relationship": {
					"coding": [
						{
							"system": "urn:oid:1.2.840.114350.1.13.277.3.7.10.678671.305",
							"code": "01",
							"display": "Self"
						},
						{
							"system": "http://terminology.hl7.org/CodeSystem/subscriber-relationship",
							"code": "self",
							"display": "Self"
						}
					],
					"text": "Self"
				},
				"period": {
					"start": "2023-01-01"
				},
				"payor": [
					{
						"reference": "Organization/eFlm.Qir.QPogkifIr70FLQ3",
						"identifier": {
							"use": "official",
							"system": "http://open.epic.com/FHIR/StructureDefinition/payer-id",
							"value": "3001"
						},
						"display": "MEDICAID"
					}
				],
				"class": [
					{
						"extension": [
							{
								"url": "http://open.epic.com/FHIR/StructureDefinition/extension/epic-id",
								"valueIdentifier": {
									"use": "secondary",
									"system": "urn:oid:1.2.840.114350.1.13.277.3.7.2.698080",
									"value": "300106"
								}
							}
						],
						"type": {
							"coding": [
								{
									"system": "http://terminology.hl7.org/CodeSystem/coverage-class",
									"code": "plan",
									"display": "Plan"
								}
							]
						},
						"value": "300106",
						"name": "MEDICAID MICHIGAN"
					}
				],
				"order": 1
			},
			"request": {
				"method": "PUT",
				"url": "Coverage/hash-2c79f7e9"
			}
		},
		{
			"resource": {
				"resourceType": "MedicationRequest",
				"id": "eUiVPIA4udhEdqh-pTkrmwgSyQiJ4b3lTggI9WYnyGUk3",
				"identifier": [
					{
						"use": "usual",
						"system": "urn:oid:1.2.840.114350.1.13.277.3.7.2.798268",
						"value": "101960077"
					}
				],
				"status": "active",
				"intent": "plan",
				"category": [
					{
						"coding": [
							{
								"system": "http://terminology.hl7.org/CodeSystem/medicationrequest-category",
								"code": "community",
								"display": "Community"
							}
						],
						"text": "Community"
					}
				],
				"reportedBoolean": true,
				"medicationReference": {
					"extension": [
						{
							"url": "https://www.cdc.gov/nhsn/fhir/nhsnlink/StructureDefinition/nhsnlink-original-id",
							"valueString": "Medication/eBHvg5JNObOqJk3gML.E85xDWgoAUl8uvBsgQtTwIRwVOx0HADTxF94BsIcRb0BYq1rosld3jC5xYyy.BdoYYylFnmX5Z737Qem6EeV1RPow3"
						}
					],
					"reference": "Medication/hash-c16eca7f",
					"display": "budesonide (PULMICORT RESPULES) 1 mg/2 mL nebulizer solutionn"
				},
				"subject": {
					"reference": "Patient/eNeMVHWfNoTsMTbrwWQQ30A3",
					"display": "Hob, Hobevent"
				},
				"encounter": {
					"reference": "Encounter/e2RfNK8qdAWCAGOZ2ay3S3A3",
					"identifier": {
						"use": "usual",
						"system": "urn:oid:1.2.840.114350.1.13.277.3.7.3.698084.8",
						"value": "1000518445"
					},
					"display": "Hospital Encounter"
				},
				"authoredOn": "2023-01-12T04:43:36Z",
				"requester": {
					"extension": [
						{
							"url": "http://hl7.org/fhir/StructureDefinition/data-absent-reason",
							"valueCode": "unknown"
						}
					]
				},
				"recorder": {
					"reference": "Practitioner/eOhmD54dQwEGyb07KgroY-Q3",
					"type": "Practitioner",
					"display": "Nurse Um_Cln, RN"
				},
				"courseOfTherapyType": {
					"coding": [
						{
							"system": "http://terminology.hl7.org/CodeSystem/medicationrequest-course-of-therapy",
							"code": "continuous",
							"display": "Continuous long term therapy"
						}
					],
					"text": "Continuous long term therapy"
				},
				"dosageInstruction": [
					{
						"text": "Inhale 1 mg via nebulizer two times daily. Use 2mg via nebulizer BID for exacerbations Indications: controller medication for asthma, asthma exacerbation, Historical Med",
						"patientInstruction": "Inhale 1 mg via nebulizer two times daily. Use 2mg via nebulizer BID for exacerbations Indications: controller medication for asthma, asthma exacerbation",
						"timing": {
							"repeat": {
								"timeOfDay": [
									"09:00:00",
									"21:00:00"
								]
							},
							"code": {
								"text": "2x Daily"
							}
						},
						"asNeededBoolean": false,
						"route": {
							"coding": [
								{
									"system": "urn:oid:1.2.840.114350.1.13.277.3.7.4.798268.7025",
									"code": "82",
									"display": "Nebulization"
								}
							],
							"text": "Nebulization"
						},
						"doseAndRate": [
							{
								"type": {
									"coding": [
										{
											"system": "http://epic.com/CodeSystem/dose-rate-type",
											"code": "ordered",
											"display": "ordered"
										}
									],
									"text": "ordered"
								},
								"doseQuantity": {
									"value": 1,
									"unit": "mg",
									"system": "http://unitsofmeasure.org",
									"code": "mg"
								}
							}
						]
					}
				]
			},
			"request": {
				"method": "PUT",
				"url": "MedicationRequest/eUiVPIA4udhEdqh-pTkrmwgSyQiJ4b3lTggI9WYnyGUk3"
			}
		},
		{
			"resource": {
				"resourceType": "MedicationRequest",
				"id": "ecNaY9vByB7Ii5BDmDeg0o0k.7h6sKqbu8iDWxN5E6-Y3",
				"identifier": [
					{
						"use": "usual",
						"system": "urn:oid:1.2.840.114350.1.13.277.3.7.2.798268",
						"value": "101960086"
					}
				],
				"status": "stopped",
				"intent": "order",
				"category": [
					{
						"coding": [
							{
								"system": "http://terminology.hl7.org/CodeSystem/medicationrequest-category",
								"code": "inpatient",
								"display": "Inpatient"
							}
						],
						"text": "Inpatient"
					}
				],
				"medicationReference": {
					"extension": [
						{
							"url": "https://www.cdc.gov/nhsn/fhir/nhsnlink/StructureDefinition/nhsnlink-original-id",
							"valueString": "Medication/eo0l-6m6Q-v-WJmUH1wx7psD2LejzYDZMPgbhGN2GcV2AkZ4VHBPWP8vGefgz2Kq7CdanmxQFD7aRWGU12li2Hws-uSaNiadFWkT3Dr6XZbM3"
						}
					],
					"reference": "Medication/hash-1a68b258",
					"display": "ceFAZolin PRE-Assembled 500 mg in 100 mL NS"
				},
				"subject": {
					"reference": "Patient/eNeMVHWfNoTsMTbrwWQQ30A3",
					"display": "Hob, Hobevent"
				},
				"encounter": {
					"reference": "Encounter/e2RfNK8qdAWCAGOZ2ay3S3A3",
					"identifier": {
						"use": "usual",
						"system": "urn:oid:1.2.840.114350.1.13.277.3.7.3.698084.8",
						"value": "1000518445"
					},
					"display": "Hospital Encounter"
				},
				"authoredOn": "2023-01-12T05:27:12Z",
				"requester": {
					"reference": "Practitioner/eFmGhJg.OtWkLRQ5qBvdscA3",
					"type": "Practitioner",
					"display": "Faculty Physician Um_Cln, MD"
				},
				"recorder": {
					"reference": "Practitioner/eFmGhJg.OtWkLRQ5qBvdscA3",
					"type": "Practitioner",
					"display": "Faculty Physician Um_Cln, MD"
				},
				"courseOfTherapyType": {
					"coding": [
						{
							"system": "http://terminology.hl7.org/CodeSystem/medicationrequest-course-of-therapy",
							"code": "acute",
							"display": "Short course (acute) therapy"
						}
					],
					"text": "Short course (acute) therapy"
				},
				"dosageInstruction": [
					{
						"text": "500 mg, Intravenous, EVERY 8 HOURS SCHEDULED\nRecommended INF time: 30 mins. Exp 24 hrs after activation.\nFirst dose on Wed 1/4/23 at 1700",
						"timing": {
							"repeat": {
								"boundsPeriod": {
									"start": "2023-01-04T22:00:00Z",
									"end": "2023-01-23T05:58:56Z"
								},
								"frequency": 3,
								"period": 1,
								"periodUnit": "d"
							},
							"code": {
								"text": "0100, 0900, 1700"
							}
						},
						"asNeededBoolean": false,
						"route": {
							"coding": [
								{
									"system": "urn:oid:1.2.840.114350.1.13.277.3.7.4.798268.7025",
									"code": "11",
									"display": "Intravenous"
								}
							],
							"text": "Intravenous"
						},
						"doseAndRate": [
							{
								"type": {
									"coding": [
										{
											"system": "http://epic.com/CodeSystem/dose-rate-type",
											"code": "calculated",
											"display": "calculated"
										}
									],
									"text": "calculated"
								},
								"doseQuantity": {
									"value": 500,
									"unit": "mg",
									"system": "http://unitsofmeasure.org",
									"code": "mg"
								}
							},
							{
								"type": {
									"coding": [
										{
											"system": "http://epic.com/CodeSystem/dose-rate-type",
											"code": "admin-amount",
											"display": "admin-amount"
										}
									],
									"text": "admin-amount"
								},
								"doseQuantity": {
									"value": 500,
									"unit": "mg",
									"system": "http://unitsofmeasure.org",
									"code": "mg"
								}
							},
							{
								"type": {
									"coding": [
										{
											"system": "http://epic.com/CodeSystem/dose-rate-type",
											"code": "ordered",
											"display": "ordered"
										}
									],
									"text": "ordered"
								},
								"doseQuantity": {
									"value": 500,
									"unit": "mg",
									"system": "http://unitsofmeasure.org",
									"code": "mg"
								}
							}
						]
					}
				]
			},
			"request": {
				"method": "PUT",
				"url": "MedicationRequest/ecNaY9vByB7Ii5BDmDeg0o0k.7h6sKqbu8iDWxN5E6-Y3"
			}
		},
		{
			"resource": {
				"resourceType": "MedicationRequest",
				"id": "ecuHJfJ6WKx9z.676acpWOPhzNM7xA3YVCp-ND9jPYWU3",
				"identifier": [
					{
						"use": "usual",
						"system": "urn:oid:1.2.840.114350.1.13.277.3.7.2.798268",
						"value": "101960083"
					}
				],
				"status": "stopped",
				"intent": "order",
				"category": [
					{
						"coding": [
							{
								"system": "http://terminology.hl7.org/CodeSystem/medicationrequest-category",
								"code": "inpatient",
								"display": "Inpatient"
							}
						],
						"text": "Inpatient"
					}
				],
				"medicationReference": {
					"extension": [
						{
							"url": "https://www.cdc.gov/nhsn/fhir/nhsnlink/StructureDefinition/nhsnlink-original-id",
							"valueString": "Medication/e.-xZ7FyULdOlApHWSMW3jOJa4HHd41YAlTmnWP6qipbgP1B1IxOLiwZa56Llc6xWNCEjw-beVBf9FlIsRoEMXug8ZEnaLKcCLqO1mDx86683"
						}
					],
					"reference": "Medication/hash-4a138603",
					"display": "budesonide (PULMICORT RESPULES) 0.5 mg/2 mL inhalation solution"
				},
				"subject": {
					"reference": "Patient/eNeMVHWfNoTsMTbrwWQQ30A3",
					"display": "Hob, Hobevent"
				},
				"encounter": {
					"reference": "Encounter/e2RfNK8qdAWCAGOZ2ay3S3A3",
					"identifier": {
						"use": "usual",
						"system": "urn:oid:1.2.840.114350.1.13.277.3.7.3.698084.8",
						"value": "1000518445"
					},
					"display": "Hospital Encounter"
				},
				"authoredOn": "2023-01-12T05:05:13Z",
				"requester": {
					"reference": "Practitioner/eFmGhJg.OtWkLRQ5qBvdscA3",
					"type": "Practitioner",
					"display": "Faculty Physician Um_Cln, MD"
				},
				"recorder": {
					"reference": "Practitioner/e6kYynnxZkIopcaB9xRWwXQ3",
					"type": "Practitioner",
					"display": "Michael Stuart Montgomery Lanham, MD"
				},
				"courseOfTherapyType": {
					"coding": [
						{
							"system": "http://terminology.hl7.org/CodeSystem/medicationrequest-course-of-therapy",
							"code": "continuous",
							"display": "Continuous long term therapy"
						}
					],
					"text": "Continuous long term therapy"
				},
				"dosageInstruction": [
					{
						"text": "1 mg, Nebulization, 2 TIMES DAILY (RT)\nFirst dose on Sun 1/1/23 at 1000, Until Discontinued",
						"timing": {
							"repeat": {
								"boundsPeriod": {
									"start": "2023-01-01T15:00:00Z",
									"end": "2023-01-23T05:58:56Z"
								},
								"frequency": 2,
								"period": 1,
								"periodUnit": "d"
							},
							"code": {
								"text": "respiratory use only - 1000, 2200"
							}
						},
						"asNeededBoolean": false,
						"route": {
							"coding": [
								{
									"system": "urn:oid:1.2.840.114350.1.13.277.3.7.4.798268.7025",
									"code": "82",
									"display": "Nebulization"
								}
							],
							"text": "Nebulization"
						},
						"doseAndRate": [
							{
								"type": {
									"coding": [
										{
											"system": "http://epic.com/CodeSystem/dose-rate-type",
											"code": "calculated",
											"display": "calculated"
										}
									],
									"text": "calculated"
								},
								"doseQuantity": {
									"value": 1,
									"unit": "mg",
									"system": "http://unitsofmeasure.org",
									"code": "mg"
								}
							},
							{
								"type": {
									"coding": [
										{
											"system": "http://epic.com/CodeSystem/dose-rate-type",
											"code": "admin-amount",
											"display": "admin-amount"
										}
									],
									"text": "admin-amount"
								},
								"doseQuantity": {
									"value": 4,
									"unit": "mL",
									"system": "http://unitsofmeasure.org",
									"code": "mL"
								}
							},
							{
								"type": {
									"coding": [
										{
											"system": "http://epic.com/CodeSystem/dose-rate-type",
											"code": "ordered",
											"display": "ordered"
										}
									],
									"text": "ordered"
								},
								"doseQuantity": {
									"value": 1,
									"unit": "mg",
									"system": "http://unitsofmeasure.org",
									"code": "mg"
								}
							}
						]
					}
				]
			},
			"request": {
				"method": "PUT",
				"url": "MedicationRequest/ecuHJfJ6WKx9z.676acpWOPhzNM7xA3YVCp-ND9jPYWU3"
			}
		},
		{
			"resource": {
				"resourceType": "Medication",
				"id": "hash-1a68b258",
				"extension": [
					{
						"url": "https://www.cdc.gov/nhsn/fhir/nhsnlink/StructureDefinition/nhsnlink-original-id",
						"valueString": "eo0l-6m6Q-v-WJmUH1wx7psD2LejzYDZMPgbhGN2GcV2AkZ4VHBPWP8vGefgz2Kq7CdanmxQFD7aRWGU12li2Hws-uSaNiadFWkT3Dr6XZbM3"
					}
				],
				"identifier": [
					{
						"use": "usual",
						"system": "urn:oid:1.2.840.114350.1.13.277.3.7.2.698288",
						"value": "40842034"
					}
				],
				"code": {
					"text": "ceFAZolin PRE-Assembled 500 mg in 100 mL NS"
				},
				"ingredient": [
					{
						"itemReference": {
							"reference": "Medication/ew8cK1L.UyfZ2IJljI9A2sg3",
							"display": "ceFAZolin"
						},
						"strength": {
							"numerator": {
								"value": 500,
								"unit": "mg",
								"system": "http://unitsofmeasure.org",
								"code": "mg"
							},
							"denominator": {
								"value": 100,
								"unit": "mL",
								"system": "http://unitsofmeasure.org",
								"code": "mL"
							}
						}
					},
					{
						"itemReference": {
							"reference": "Medication/eDKJ.1d8578nQuGPlTDTEHeLL.9mJFtGVnpApe3k1R.I3",
							"display": "sodium chloride 0.9 %"
						},
						"strength": {
							"numerator": {
								"value": 100,
								"unit": "mL",
								"system": "http://unitsofmeasure.org",
								"code": "mL"
							},
							"denominator": {
								"value": 100,
								"unit": "mL",
								"system": "http://unitsofmeasure.org",
								"code": "mL"
							}
						}
					}
				]
			},
			"request": {
				"method": "PUT",
				"url": "Medication/hash-1a68b258"
			}
		},
		{
			"resource": {
				"resourceType": "Medication",
				"id": "hash-4a138603",
				"extension": [
					{
						"url": "https://www.cdc.gov/nhsn/fhir/nhsnlink/StructureDefinition/nhsnlink-original-id",
						"valueString": "e.-xZ7FyULdOlApHWSMW3jOJa4HHd41YAlTmnWP6qipbgP1B1IxOLiwZa56Llc6xWNCEjw-beVBf9FlIsRoEMXug8ZEnaLKcCLqO1mDx86683"
					}
				],
				"identifier": [
					{
						"use": "usual",
						"system": "urn:oid:1.2.840.114350.1.13.277.3.7.2.698288",
						"value": "28775"
					}
				],
				"code": {
					"coding": [
						{
							"system": "http://www.whocc.no/atc",
							"code": "R03BA02"
						},
						{
							"system": "urn:oid:2.16.840.1.113883.6.208",
							"code": "46526"
						},
						{
							"system": "http://www.nlm.nih.gov/research/umls/rxnorm",
							"code": "19831"
						},
						{
							"system": "http://www.nlm.nih.gov/research/umls/rxnorm",
							"code": "153171"
						},
						{
							"system": "http://www.nlm.nih.gov/research/umls/rxnorm",
							"code": "196487"
						},
						{
							"system": "http://www.nlm.nih.gov/research/umls/rxnorm",
							"code": "196488"
						},
						{
							"system": "http://www.nlm.nih.gov/research/umls/rxnorm",
							"code": "351109"
						},
						{
							"system": "http://www.nlm.nih.gov/research/umls/rxnorm",
							"code": "616817"
						},
						{
							"system": "http://www.nlm.nih.gov/research/umls/rxnorm",
							"code": "1366551"
						},
						{
							"system": "http://www.nlm.nih.gov/research/umls/rxnorm",
							"code": "2273102"
						},
						{
							"system": "http://www.nlm.nih.gov/research/umls/rxnorm",
							"code": "2587884"
						}
					],
					"text": "budesonide (PULMICORT RESPULES) 0.5 mg/2 mL inhalation solution"
				},
				"form": {
					"coding": [
						{
							"system": "urn:oid:1.2.840.114350.1.13.277.3.7.4.698288.310",
							"code": "NbSp",
							"display": "Suspension for Nebulization"
						}
					],
					"text": "Suspension for Nebulization"
				},
				"ingredient": [
					{
						"itemCodeableConcept": {
							"coding": [
								{
									"system": "http://www.whocc.no/atc",
									"code": "R03BA02"
								},
								{
									"system": "urn:oid:2.16.840.1.113883.6.208",
									"code": "46526"
								},
								{
									"system": "http://www.nlm.nih.gov/research/umls/rxnorm",
									"code": "19831"
								},
								{
									"system": "http://www.nlm.nih.gov/research/umls/rxnorm",
									"code": "153171"
								},
								{
									"system": "http://www.nlm.nih.gov/research/umls/rxnorm",
									"code": "196487"
								},
								{
									"system": "http://www.nlm.nih.gov/research/umls/rxnorm",
									"code": "196488"
								},
								{
									"system": "http://www.nlm.nih.gov/research/umls/rxnorm",
									"code": "351109"
								},
								{
									"system": "http://www.nlm.nih.gov/research/umls/rxnorm",
									"code": "616817"
								},
								{
									"system": "http://www.nlm.nih.gov/research/umls/rxnorm",
									"code": "1366551"
								},
								{
									"system": "http://www.nlm.nih.gov/research/umls/rxnorm",
									"code": "2273102"
								},
								{
									"system": "http://www.nlm.nih.gov/research/umls/rxnorm",
									"code": "2587884"
								}
							],
							"text": "budesonide (PULMICORT RESPULES) 0.5 mg/2 mL inhalation solution"
						},
						"strength": {
							"numerator": {
								"value": 0.5,
								"unit": "mg/2 mL"
							},
							"denominator": {
								"value": 0.5,
								"unit": "mg/2 mL"
							}
						}
					}
				]
			},
			"request": {
				"method": "PUT",
				"url": "Medication/hash-4a138603"
			}
		},
		{
			"resource": {
				"resourceType": "Medication",
				"id": "hash-c16eca7f",
				"extension": [
					{
						"url": "https://www.cdc.gov/nhsn/fhir/nhsnlink/StructureDefinition/nhsnlink-original-id",
						"valueString": "eBHvg5JNObOqJk3gML.E85xDWgoAUl8uvBsgQtTwIRwVOx0HADTxF94BsIcRb0BYq1rosld3jC5xYyy.BdoYYylFnmX5Z737Qem6EeV1RPow3"
					}
				],
				"identifier": [
					{
						"use": "usual",
						"system": "urn:oid:1.2.840.114350.1.13.277.3.7.2.698288",
						"value": "88223"
					}
				],
				"code": {
					"coding": [
						{
							"system": "http://www.whocc.no/atc",
							"code": "R03BA02"
						},
						{
							"system": "urn:oid:2.16.840.1.113883.6.208",
							"code": "18165"
						},
						{
							"system": "http://www.nlm.nih.gov/research/umls/rxnorm",
							"code": "19831"
						},
						{
							"system": "http://www.nlm.nih.gov/research/umls/rxnorm",
							"code": "153171"
						},
						{
							"system": "http://www.nlm.nih.gov/research/umls/rxnorm",
							"code": "196487"
						},
						{
							"system": "http://www.nlm.nih.gov/research/umls/rxnorm",
							"code": "196488"
						},
						{
							"system": "http://www.nlm.nih.gov/research/umls/rxnorm",
							"code": "252559"
						},
						{
							"system": "http://www.nlm.nih.gov/research/umls/rxnorm",
							"code": "616819"
						},
						{
							"system": "http://www.nlm.nih.gov/research/umls/rxnorm",
							"code": "1366551"
						},
						{
							"system": "http://www.nlm.nih.gov/research/umls/rxnorm",
							"code": "2273102"
						},
						{
							"system": "http://www.nlm.nih.gov/research/umls/rxnorm",
							"code": "2587884"
						}
					],
					"text": "budesonide (PULMICORT RESPULES) 1 mg/2 mL nebulizer solutionn"
				},
				"form": {
					"coding": [
						{
							"system": "urn:oid:1.2.840.114350.1.13.277.3.7.4.698288.310",
							"code": "NbSp",
							"display": "Suspension for Nebulization"
						}
					],
					"text": "Suspension for Nebulization"
				},
				"ingredient": [
					{
						"itemCodeableConcept": {
							"coding": [
								{
									"system": "http://www.whocc.no/atc",
									"code": "R03BA02"
								},
								{
									"system": "urn:oid:2.16.840.1.113883.6.208",
									"code": "18165"
								},
								{
									"system": "http://www.nlm.nih.gov/research/umls/rxnorm",
									"code": "19831"
								},
								{
									"system": "http://www.nlm.nih.gov/research/umls/rxnorm",
									"code": "153171"
								},
								{
									"system": "http://www.nlm.nih.gov/research/umls/rxnorm",
									"code": "196487"
								},
								{
									"system": "http://www.nlm.nih.gov/research/umls/rxnorm",
									"code": "196488"
								},
								{
									"system": "http://www.nlm.nih.gov/research/umls/rxnorm",
									"code": "252559"
								},
								{
									"system": "http://www.nlm.nih.gov/research/umls/rxnorm",
									"code": "616819"
								},
								{
									"system": "http://www.nlm.nih.gov/research/umls/rxnorm",
									"code": "1366551"
								},
								{
									"system": "http://www.nlm.nih.gov/research/umls/rxnorm",
									"code": "2273102"
								},
								{
									"system": "http://www.nlm.nih.gov/research/umls/rxnorm",
									"code": "2587884"
								}
							],
							"text": "budesonide (PULMICORT RESPULES) 1 mg/2 mL nebulizer solutionn"
						},
						"strength": {
							"numerator": {
								"value": 1,
								"unit": "mg/2 mL"
							},
							"denominator": {
								"value": 1,
								"unit": "mg/2 mL"
							}
						}
					}
				]
			},
			"request": {
				"method": "PUT",
				"url": "Medication/hash-c16eca7f"
			}
		},
		{
			"resource": {
				"resourceType": "Location",
				"id": "eYJBEaYZeCt0e7EiJLrGTsA3",
				"identifier": [
					{
						"type": {
							"coding": [
								{
									"system": "http://hl7.org/fhir/sid/us-tin",
									"code": "TAX"
								}
							],
							"text": "Tax ID Number"
						},
						"value": "386006309"
					},
					{
						"use": "usual",
						"system": "urn:oid:1.2.840.114350.1.13.277.3.7.2.696570",
						"value": "10"
					}
				],
				"name": "Michigan Medicine",
				"mode": "instance",
				"type": [
					{
						"coding": [
							{
								"system": "urn:oid:1.2.840.114350.1.13.277.3.7.10.696570.5002",
								"code": "22",
								"display": "On Campus - Outpatient Hospital"
							}
						],
						"text": "On Campus - Outpatient Hospital"
					}
				],
				"telecom": [
					{
						"system": "phone",
						"value": "855-855-0863",
						"rank": 1
					}
				],
				"address": {
					"line": [
						"1500 E MEDICAL CENTER DR"
					],
					"city": "ANN ARBOR",
					"district": "WASHTENAW",
					"state": "Michigan",
					"postalCode": "48109",
					"country": "United States of America"
				}
			},
			"request": {
				"method": "PUT",
				"url": "Location/eYJBEaYZeCt0e7EiJLrGTsA3"
			}
		},
		{
			"resource": {
				"resourceType": "Location",
				"id": "exXYgJ9daGD8ZDgiZ3XoXIQ3",
				"name": "1204",
				"alias": [
					"12E-1204"
				],
				"mode": "instance",
				"partOf": {
					"reference": "Location/ea1GRyXwt6.sHaLqHL7jphAqX1qVrSyzBjZzQY3aASx83",
					"display": "MH 12E GEN CARE"
				}
			},
			"request": {
				"method": "PUT",
				"url": "Location/exXYgJ9daGD8ZDgiZ3XoXIQ3"
			}
		},
		{
			"resource": {
				"resourceType": "Location",
				"id": "ea1GRyXwt6.sHaLqHL7jphAqX1qVrSyzBjZzQY3aASx83",
				"extension": [
					{
						"url": "https://open.epic.com/fhir/extensions/specialty",
						"valueCodeableConcept": {
							"coding": [
								{
									"system": "urn:oid:1.2.840.114350.1.72.1.7.7.10.688867.4150",
									"code": "193",
									"display": "Inpatient"
								}
							]
						}
					}
				],
				"identifier": [
					{
						"use": "usual",
						"system": "urn:oid:1.2.840.114350.1.13.277.3.7.2.686980",
						"value": "100056124"
					}
				],
				"name": "MH 12E GEN CARE",
				"alias": [
					"12E"
				],
				"mode": "instance",
				"telecom": [
					{
						"system": "phone",
						"value": "734-936-4000",
						"rank": 1
					}
				],
				"address": {
					"line": [
						"1540 E Hospital Dr"
					],
					"city": "Ann Arbor",
					"state": "Michigan",
					"postalCode": "48109"
				},
				"managingOrganization": {
					"reference": "Organization/erxTMCB-Kc.2EvAa-hg6dtw3",
					"display": "MOTT CHILDREN'S HOSPITAL"
				},
				"partOf": {
					"reference": "Location/eNZBEmcyWHVx-6HO4o035UA3",
					"display": "MOTT CHILDREN'S HOSPITAL"
				}
			},
			"request": {
				"method": "PUT",
				"url": "Location/ea1GRyXwt6.sHaLqHL7jphAqX1qVrSyzBjZzQY3aASx83"
			}
		},
		{
			"resource": {
				"resourceType": "Location",
				"id": "eaA8jQ6JzXsG1s.pYNa6L5NMpnIWhwvEC5pOd4v.WYq43",
				"extension": [
					{
						"url": "https://open.epic.com/fhir/extensions/specialty",
						"valueCodeableConcept": {
							"coding": [
								{
									"system": "urn:oid:1.2.840.114350.1.72.1.7.7.10.688867.4150",
									"code": "17",
									"display": "Emergency Medicine"
								}
							]
						}
					}
				],
				"identifier": [
					{
						"use": "usual",
						"system": "urn:oid:1.2.840.114350.1.13.277.3.7.2.686980",
						"value": "100051801"
					}
				],
				"name": "MH Childrens Emergency Department",
				"alias": [
					"CES"
				],
				"mode": "instance",
				"telecom": [
					{
						"system": "phone",
						"value": "734-936-4230",
						"rank": 1
					},
					{
						"system": "fax",
						"value": "734-998-0037"
					}
				],
				"address": {
					"line": [
						"1540 E Hospital Dr"
					],
					"city": "Ann Arbor",
					"state": "Michigan",
					"postalCode": "48109"
				},
				"managingOrganization": {
					"reference": "Organization/erxTMCB-Kc.2EvAa-hg6dtw3",
					"display": "MOTT CHILDREN'S HOSPITAL"
				},
				"partOf": {
					"reference": "Location/eNZBEmcyWHVx-6HO4o035UA3",
					"display": "MOTT CHILDREN'S HOSPITAL"
				}
			},
			"request": {
				"method": "PUT",
				"url": "Location/eaA8jQ6JzXsG1s.pYNa6L5NMpnIWhwvEC5pOd4v.WYq43"
			}
		}
	]
}
